trial, Lperson, Rperson, Key1, RT1, ChosenP,Items for sale in trial, Probs-Ch2, Ch2-Fdbck, Ch2-Key, Ch2-RT, Probs-Ch3, Ch3-Fdbck, Ch3-Key, Ch3-RT, Veg/Clothing 1st,iti
1,1,3,right,1458,3,v2.pngc1.png,75,1,left,2043,38,0,right,1860,['WearFirst'],1
3,3,1,right,4873,1,v1.pngc1.png,76,0,left,779,39,0,right,638,['WearFirst'],1
4,3,2,left,1303,3,v2.pngc1.png,73,1,right,2062,39,1,left,198,['VegFirst'],1
1,2,1,right,1869,1,v1.pngc1.png,75,1,left,1462,38,0,right,1654,['VegFirst'],1
2,3,4,right,1814,4,v1.pngc2.png,52,0,left,1465,30,0,left,593,['WearFirst'],1
3,2,3,left,53,2,v2.pngc2.png,50,1,right,1725,29,1,left,755,['VegFirst'],1
4,4,2,left,1015,4,v1.pngc2.png,47,1,left,921,26,1,left,1583,['WearFirst'],1
5,1,2,right,867,2,v2.pngc2.png,50,1,right,1275,28,0,left,530,['VegFirst'],1
6,1,3,left,2880,1,v1.pngc1.png,70,0,left,833,45,1,left,650,['WearFirst'],1
7,1,3,left,827,1,v1.pngc1.png,69,1,left,909,41,0,right,587,['WearFirst'],1
8,1,2,right,1462,2,v2.pngc2.png,54,0,right,471,30,0,right,1270,['VegFirst'],1
9,2,4,left,3439,2,v2.pngc2.png,56,0,right,889,27,0,right,544,['WearFirst'],1
10,3,4,right,1588,4,v1.pngc2.png,59,1,right,696,25,0,right,327,['WearFirst'],1
11,1,2,left,2020,1,v1.pngc1.png,70,1,right,551,40,0,left,75,['VegFirst'],1
12,2,4,right,867,4,v1.pngc2.png,64,1,left,747,21,0,left,480,['WearFirst'],1
13,2,4,right,735,4,v1.pngc2.png,69,0,left,564,22,0,left,480,['WearFirst'],1
14,1,4,left,2408,1,v1.pngc1.png,68,1,right,715,41,1,left,313,['WearFirst'],1
16,2,3,right,2561,3,v2.pngc1.png,63,1,left,695,38,0,left,301,['WearFirst'],1
17,1,2,left,1636,1,v1.pngc1.png,64,1,right,350,39,0,left,594,['WearFirst'],1
18,2,4,right,901,4,v1.pngc2.png,69,1,left,668,22,0,left,620,['WearFirst'],1
19,3,2,right,2501,2,v2.pngc2.png,67,1,left,637,28,0,left,406,['VegFirst'],1
20,3,1,right,983,1,v1.pngc1.png,59,1,left,499,43,0,right,490,['WearFirst'],1
21,1,3,left,1864,1,v1.pngc1.png,65,1,left,505,42,0,right,567,['WearFirst'],1
22,2,1,left,2914,2,v2.pngc2.png,64,1,left,513,25,1,left,399,['WearFirst'],1
23,4,1,left,2802,4,v1.pngc2.png,62,1,left,493,23,0,right,332,['VegFirst'],1
24,3,2,right,1960,2,v2.pngc2.png,60,1,left,357,22,1,left,321,['WearFirst'],1
25,1,2,right,1878,2,v2.pngc2.png,58,0,left,423,20,0,left,320,['WearFirst'],1
26,1,3,left,1558,1,v1.pngc1.png,67,1,left,323,45,0,right,256,['VegFirst'],1
27,3,4,right,1008,4,v1.pngc2.png,56,1,right,571,24,0,right,374,['WearFirst'],1
28,2,1,right,1097,1,v1.pngc1.png,74,1,right,721,48,0,right,414,['VegFirst'],1
29,4,3,left,2568,4,v1.pngc2.png,57,0,right,589,27,0,left,408,['VegFirst'],1
30,3,2,right,1370,2,v2.pngc2.png,55,0,right,734,28,0,right,276,['VegFirst'],1
31,1,4,right,2595,4,v1.pngc2.png,56,1,left,343,25,0,right,252,['VegFirst'],1
32,2,4,right,1276,4,v1.pngc2.png,57,0,left,381,23,0,left,240,['VegFirst'],1
33,2,4,right,721,4,v1.pngc2.png,59,1,right,711,24,1,left,293,['VegFirst'],1
34,4,1,left,571,4,v1.pngc2.png,57,1,right,576,24,0,right,275,['WearFirst'],1
35,2,3,right,3090,3,v2.pngc1.png,76,1,left,610,44,1,left,412,['VegFirst'],1
36,4,3,left,1718,4,v1.pngc2.png,57,1,left,389,27,0,right,360,['VegFirst'],1
37,3,2,left,2323,3,v2.pngc1.png,73,1,right,524,44,0,left,269,['WearFirst'],1
38,3,2,left,1693,3,v2.pngc1.png,74,0,left,613,44,1,right,247,['WearFirst'],1
39,3,4,right,1111,4,v1.pngc2.png,56,1,right,1006,30,0,left,152,['VegFirst'],1
40,1,3,left,1525,1,v1.pngc1.png,79,0,left,491,46,0,left,234,['WearFirst'],1
42,1,2,left,1794,1,v1.pngc1.png,76,0,right,30,47,0,right,759,['WearFirst'],1
43,3,1,right,1852,1,v1.pngc1.png,73,1,right,373,49,1,right,280,['VegFirst'],1
44,1,3,left,608,1,v1.pngc1.png,75,0,left,394,47,0,left,277,['WearFirst'],1
45,3,4,left,1101,3,v2.pngc1.png,76,1,left,316,48,0,left,378,['WearFirst'],1
46,3,1,left,805,3,v2.pngc1.png,73,0,left,408,48,1,right,330,['VegFirst'],1
47,3,4,left,927,3,v2.pngc1.png,73,0,left,670,49,1,left,333,['WearFirst'],1
48,2,1,right,1218,1,v1.pngc1.png,72,0,right,461,47,0,right,276,['WearFirst'],1
49,3,4,left,1220,3,v2.pngc1.png,69,1,right,678,46,0,left,285,['WearFirst'],1
50,1,4,left,1693,1,v1.pngc1.png,67,1,left,469,45,0,right,380,['WearFirst'],1
51,2,3,left,1296,2,v2.pngc2.png,50,0,right,367,47,0,right,347,['VegFirst'],1
52,3,1,left,1169,3,v2.pngc1.png,73,1,right,637,46,1,left,278,['WearFirst'],1
53,2,1,left,966,2,v2.pngc2.png,58,1,left,642,47,0,right,259,['VegFirst'],1
54,1,4,left,1515,1,v1.pngc1.png,70,0,right,266,46,1,right,258,['VegFirst'],1
56,2,3,right,2671,3,v2.pngc1.png,66,0,left,328,42,0,right,245,['VegFirst'],1
57,1,2,right,679,2,v2.pngc2.png,58,1,left,623,51,1,right,712,['WearFirst'],1
58,3,4,left,1095,3,v2.pngc1.png,65,0,left,382,45,1,left,482,['WearFirst'],1
59,3,4,left,994,3,v2.pngc1.png,65,1,right,325,40,1,right,274,['WearFirst'],1
60,2,1,left,771,2,v2.pngc2.png,54,0,left,423,59,1,left,480,['WearFirst'],1
61,1,3,left,2408,1,v1.pngc1.png,63,0,right,59,32,0,right,227,['VegFirst'],1
62,1,2,right,1053,2,v2.pngc2.png,57,0,left,302,54,0,left,333,['VegFirst'],1
63,4,2,left,723,4,v1.pngc2.png,64,1,left,305,52,0,right,279,['VegFirst'],1
64,2,1,right,719,1,v1.pngc1.png,62,0,left,341,27,1,left,282,['VegFirst'],1
65,4,1,right,1442,1,v1.pngc1.png,57,0,right,564,30,0,left,392,['VegFirst'],1
66,1,4,left,1188,1,v1.pngc1.png,62,0,right,519,28,0,left,269,['WearFirst'],1
67,1,3,right,956,3,v2.pngc1.png,63,1,left,305,28,0,right,263,['VegFirst'],1
68,1,3,right,711,3,v2.pngc1.png,63,1,left,1102,28,0,left,229,['VegFirst'],1
69,2,1,left,806,2,v2.pngc2.png,67,1,left,329,57,1,left,246,['VegFirst'],1
70,1,3,right,896,3,v2.pngc1.png,64,1,right,599,33,0,right,234,['VegFirst'],1
71,2,4,left,972,2,v2.pngc2.png,64,0,left,320,49,0,right,237,['VegFirst'],1
72,4,2,right,815,2,v2.pngc2.png,65,1,left,314,50,1,left,247,['WearFirst'],1
73,3,2,right,961,2,v2.pngc2.png,71,0,left,518,49,1,right,316,['WearFirst'],1
74,3,4,left,1010,3,v2.pngc1.png,65,1,left,477,30,0,right,196,['WearFirst'],1
75,3,2,right,1016,2,v2.pngc2.png,73,1,right,386,48,0,right,277,['VegFirst'],1
76,2,4,left,637,2,v2.pngc2.png,78,1,right,342,49,0,right,299,['VegFirst'],1
77,1,4,left,826,1,v1.pngc1.png,68,0,right,388,30,0,right,255,['WearFirst'],1
78,4,2,right,663,2,v2.pngc2.png,77,0,left,560,50,1,right,300,['WearFirst'],1
79,2,1,left,587,2,v2.pngc2.png,80,1,left,279,53,1,left,254,['VegFirst'],1
80,2,4,left,727,2,v2.pngc2.png,80,1,right,325,52,1,left,250,['VegFirst'],1
81,1,3,right,1139,3,v2.pngc1.png,67,1,left,345,26,1,left,302,['WearFirst'],1
82,1,4,left,1206,1,v1.pngc1.png,65,0,left,305,29,1,left,254,['WearFirst'],1
83,1,4,right,1343,4,v1.pngc2.png,73,1,left,317,53,0,left,235,['WearFirst'],1
84,4,2,right,901,2,v2.pngc2.png,71,0,left,348,46,0,left,280,['WearFirst'],1
86,3,1,right,1585,1,v1.pngc1.png,55,1,right,381,33,1,left,216,['WearFirst'],1
87,3,4,right,1932,4,v1.pngc2.png,75,1,right,386,49,0,right,285,['VegFirst'],1
88,1,2,left,725,1,v1.pngc1.png,58,0,right,491,33,0,right,282,['WearFirst'],1
89,2,1,right,737,1,v1.pngc1.png,55,0,left,295,33,0,left,190,['VegFirst'],1
91,1,4,left,863,1,v1.pngc1.png,66,1,left,272,30,1,right,311,['VegFirst'],1
92,4,2,left,1038,4,v1.pngc2.png,78,1,right,311,48,0,left,269,['VegFirst'],1
93,2,3,right,1459,3,v2.pngc1.png,71,1,left,292,37,0,right,259,['VegFirst'],1
94,2,4,right,795,4,v1.pngc2.png,80,1,left,271,50,0,left,350,['VegFirst'],1
95,1,4,left,595,1,v1.pngc1.png,73,1,left,311,40,1,left,269,['VegFirst'],1
96,4,3,left,925,4,v1.pngc2.png,80,1,left,588,55,1,right,262,['WearFirst'],1
97,2,1,right,807,1,v1.pngc1.png,71,1,right,610,46,1,left,228,['WearFirst'],1
98,2,4,right,870,4,v1.pngc2.png,77,1,left,550,53,0,right,419,['WearFirst'],1
99,1,2,left,941,1,v1.pngc1.png,75,1,right,355,46,1,right,287,['VegFirst'],1
100,1,2,left,550,1,v1.pngc1.png,71,0,right,539,46,0,left,255,['WearFirst'],1
101,2,3,right,1504,3,v2.pngc1.png,68,1,right,303,41,1,right,677,['VegFirst'],1
102,2,3,right,653,3,v2.pngc1.png,64,1,left,518,38,0,right,300,['WearFirst'],1
103,1,3,right,547,3,v2.pngc1.png,62,1,right,321,43,0,right,278,['VegFirst'],1
104,3,2,right,1399,2,v2.pngc2.png,76,1,right,594,37,0,left,252,['WearFirst'],1
105,3,1,left,1134,3,v2.pngc1.png,58,1,right,356,40,0,right,296,['VegFirst'],1
106,4,3,right,1399,3,v2.pngc1.png,56,1,left,282,41,1,left,641,['VegFirst'],1
107,2,1,left,979,2,v2.pngc2.png,75,1,right,280,38,0,left,271,['VegFirst'],1
108,1,2,right,1207,2,v2.pngc2.png,74,1,right,298,43,1,right,304,['VegFirst'],1
109,3,4,left,893,3,v2.pngc1.png,57,0,left,477,43,0,left,308,['WearFirst'],1
110,4,3,right,458,3,v2.pngc1.png,58,0,left,289,40,1,left,312,['WearFirst'],1
111,4,2,right,1455,2,v2.pngc2.png,77,1,left,264,42,1,left,160,['VegFirst'],1
112,3,2,right,437,2,v2.pngc2.png,75,1,right,286,45,0,right,269,['WearFirst'],1
113,4,2,right,1157,2,v2.pngc2.png,77,0,left,258,47,0,left,226,['VegFirst'],1
114,1,4,right,884,4,v1.pngc2.png,80,1,left,268,48,1,right,315,['VegFirst'],1
115,3,2,left,1026,3,v2.pngc1.png,55,1,right,341,44,0,right,225,['WearFirst'],1
116,3,1,right,1243,1,v1.pngc1.png,57,1,left,269,44,0,left,253,['VegFirst'],1
117,2,1,left,1526,2,v2.pngc2.png,79,1,right,252,41,1,left,213,['VegFirst'],1
118,3,4,left,919,3,v2.pngc1.png,57,1,left,278,45,1,right,245,['VegFirst'],1
119,2,4,left,1567,2,v2.pngc2.png,80,1,left,323,47,0,right,240,['VegFirst'],1
120,2,1,right,1026,1,v1.pngc1.png,55,1,right,413,40,0,right,575,['WearFirst'],1
121,3,2,right,1499,2,v2.pngc2.png,80,0,left,362,46,1,right,86,['VegFirst'],1
122,1,3,right,1630,3,v2.pngc1.png,56,1,left,336,36,0,left,237,['VegFirst'],1
123,4,1,left,1246,4,v1.pngc2.png,69,0,right,600,56,0,right,234,['VegFirst'],1
124,3,2,right,741,2,v2.pngc2.png,69,1,right,434,54,0,right,244,['WearFirst'],1
126,4,2,right,779,2,v2.pngc2.png,76,1,left,319,54,0,left,293,['WearFirst'],1
127,1,3,right,596,3,v2.pngc1.png,57,1,left,287,35,0,left,254,['VegFirst'],1
128,3,2,right,639,2,v2.pngc2.png,75,1,right,592,55,1,left,323,['WearFirst'],1
130,1,4,right,1447,4,v1.pngc2.png,75,1,right,505,55,0,right,279,['VegFirst'],1
131,1,2,right,608,2,v2.pngc2.png,74,1,right,243,58,0,right,483,['VegFirst'],1
133,3,4,left,536,3,v2.pngc1.png,62,0,left,510,37,1,left,372,['VegFirst'],1
134,1,4,left,1048,1,v1.pngc1.png,62,1,left,257,39,0,left,233,['VegFirst'],1
135,2,4,right,2107,4,v1.pngc2.png,74,0,left,322,64,0,right,232,['VegFirst'],1
136,3,1,left,1642,3,v2.pngc1.png,56,1,left,348,39,0,left,304,['VegFirst'],1
137,3,2,right,479,2,v2.pngc2.png,74,1,right,647,58,1,right,224,['VegFirst'],1
138,4,2,right,521,2,v2.pngc2.png,69,1,right,512,58,0,right,294,['WearFirst'],1
139,3,2,right,1005,2,v2.pngc2.png,73,0,right,568,56,0,left,260,['WearFirst'],1
140,2,3,right,772,3,v2.pngc1.png,54,0,right,384,39,0,left,300,['VegFirst'],1
141,4,3,right,523,3,v2.pngc1.png,50,1,left,521,40,1,right,303,['WearFirst'],1
142,2,3,right,462,3,v2.pngc1.png,48,0,left,311,39,1,left,236,['WearFirst'],1
143,2,4,right,1327,4,v1.pngc2.png,80,1,right,637,62,1,right,301,['WearFirst'],1
144,2,4,right,525,4,v1.pngc2.png,77,1,right,595,67,1,left,254,['WearFirst'],1
145,4,3,left,534,4,v1.pngc2.png,80,1,left,652,63,0,right,244,['WearFirst'],1
146,1,3,left,622,1,v1.pngc1.png,58,1,right,304,41,1,left,278,['VegFirst'],1
147,1,2,left,814,1,v1.pngc1.png,56,0,right,289,36,1,right,288,['VegFirst'],1
148,1,3,right,663,3,v2.pngc1.png,50,0,right,320,39,0,right,205,['WearFirst'],1
149,2,1,right,664,1,v1.pngc1.png,53,1,left,297,34,0,left,439,['WearFirst'],1
