trial, Lperson, Rperson, Key1, RT1, ChosenP,Items for sale in trial, Probs-Ch2, Ch2-Fdbck, Ch2-Key, Ch2-RT, Probs-Ch3, Ch3-Fdbck, Ch3-Key, Ch3-RT, Veg/Clothing 1st,iti
1,4,2,right,3359,2,v2.pngc2.png,48,1,left,3741,33,0,right,2651,['WearFirst'],1
2,3,1,right,4348,1,v1.pngc1.png,75,1,right,1258,41,1,right,2435,['WearFirst'],1
3,1,3,left,2029,1,v1.pngc1.png,76,0,left,1264,39,0,right,1104,['WearFirst'],1
4,3,2,left,1206,3,v2.pngc1.png,73,0,left,1017,39,1,right,939,['WearFirst'],1
2,2,1,left,1170,2,v2.pngc2.png,52,1,right,1254,30,1,left,1407,['WearFirst'],1
3,3,2,right,1513,2,v2.pngc2.png,50,0,left,520,29,0,right,1189,['VegFirst'],1
4,2,3,right,1160,3,v2.pngc1.png,73,0,right,917,39,1,right,995,['WearFirst'],1
5,3,2,right,1390,2,v2.pngc2.png,50,1,right,714,28,0,right,672,['WearFirst'],1
6,1,3,left,1479,1,v1.pngc1.png,70,0,left,943,45,1,right,1596,['VegFirst'],1
7,3,1,left,1375,3,v2.pngc1.png,69,1,left,740,41,0,left,984,['VegFirst'],1
8,4,1,right,844,1,v1.pngc1.png,67,1,left,845,42,0,right,1070,['WearFirst'],1
9,1,2,right,1622,2,v2.pngc2.png,56,1,right,720,27,0,left,862,['VegFirst'],1
10,4,1,left,998,4,v1.pngc2.png,59,1,left,977,25,0,left,853,['WearFirst'],1
11,1,3,left,1589,1,v1.pngc1.png,70,1,right,657,40,1,left,705,['WearFirst'],1
12,4,1,right,1023,1,v1.pngc1.png,71,1,right,905,38,1,left,839,['VegFirst'],1
13,2,1,right,1336,1,v1.pngc1.png,67,1,right,934,39,0,right,779,['WearFirst'],1
14,3,4,right,2959,4,v1.pngc2.png,67,0,left,844,25,0,left,333,['WearFirst'],1
15,4,1,left,1554,4,v1.pngc2.png,67,1,left,591,26,0,right,1146,['VegFirst'],1
16,2,4,right,1503,4,v1.pngc2.png,68,1,right,846,27,0,right,319,['WearFirst'],1
17,1,2,left,1533,1,v1.pngc1.png,64,1,right,762,39,0,left,302,['WearFirst'],1
18,3,4,left,2332,3,v2.pngc1.png,63,1,left,642,38,0,left,907,['VegFirst'],1
19,2,1,left,3290,2,v2.pngc2.png,67,1,left,818,28,0,left,676,['VegFirst'],1
20,1,3,right,1700,3,v2.pngc1.png,59,0,left,523,43,1,right,552,['VegFirst'],1
21,4,2,right,1509,2,v2.pngc2.png,67,1,right,588,27,0,right,927,['VegFirst'],1
22,4,3,right,1729,3,v2.pngc1.png,64,1,left,721,45,0,right,326,['WearFirst'],1
23,4,1,right,1907,1,v1.pngc1.png,63,1,left,651,47,1,right,393,['WearFirst'],1
24,2,1,left,1236,2,v2.pngc2.png,60,0,left,533,22,0,left,467,['VegFirst'],1
25,4,2,right,1515,2,v2.pngc2.png,58,0,right,665,20,0,left,305,['WearFirst'],1
26,4,3,left,1463,4,v1.pngc2.png,57,1,left,696,22,1,left,647,['WearFirst'],1
27,4,3,left,1256,4,v1.pngc2.png,56,1,left,529,24,1,right,654,['VegFirst'],1
28,4,3,left,1750,4,v1.pngc2.png,53,0,left,443,26,0,left,364,['VegFirst'],1
29,4,1,left,1617,4,v1.pngc2.png,57,1,left,699,27,1,right,442,['WearFirst'],1
30,4,1,right,1179,1,v1.pngc1.png,75,1,right,631,50,0,right,257,['WearFirst'],1
31,1,4,left,1057,1,v1.pngc1.png,75,1,left,594,49,0,right,388,['WearFirst'],1
32,4,2,left,2767,4,v1.pngc2.png,57,1,right,1244,23,0,left,1197,['WearFirst'],1
34,3,2,right,1898,2,v2.pngc2.png,57,0,right,858,24,1,right,730,['WearFirst'],1
35,2,3,right,1335,3,v2.pngc1.png,76,0,right,629,44,0,right,766,['WearFirst'],1
36,1,4,left,1264,1,v1.pngc1.png,75,1,right,545,46,0,left,710,['VegFirst'],1
37,4,3,left,2445,4,v1.pngc2.png,54,1,left,711,30,0,right,605,['VegFirst'],1
38,3,4,left,1999,3,v2.pngc1.png,74,1,left,546,44,0,left,359,['WearFirst'],1
39,2,4,left,1811,2,v2.pngc2.png,56,0,right,438,30,1,left,566,['VegFirst'],1
40,4,2,right,1347,2,v2.pngc2.png,55,1,left,920,31,0,left,638,['WearFirst'],1
41,2,1,left,1519,2,v2.pngc2.png,55,0,left,341,36,1,right,353,['VegFirst'],1
42,4,1,left,2574,4,v1.pngc2.png,53,1,right,474,39,0,right,754,['VegFirst'],1
43,1,2,right,1102,2,v2.pngc2.png,55,1,left,308,42,1,right,658,['VegFirst'],1
44,4,1,right,2251,1,v1.pngc1.png,75,1,right,316,47,1,left,714,['VegFirst'],1
45,2,1,right,944,1,v1.pngc1.png,76,1,left,365,48,0,right,601,['VegFirst'],1
47,1,2,left,860,1,v1.pngc1.png,73,1,left,645,49,0,left,382,['WearFirst'],1
48,4,1,right,649,1,v1.pngc1.png,72,1,left,634,47,1,left,731,['WearFirst'],1
49,4,2,left,1953,4,v1.pngc2.png,51,0,left,598,44,0,right,213,['WearFirst'],1
50,3,4,left,1096,3,v2.pngc1.png,67,1,right,176,45,0,left,659,['VegFirst'],1
51,3,1,left,947,3,v2.pngc1.png,71,1,right,105,47,1,left,495,['VegFirst'],1
52,3,1,left,1238,3,v2.pngc1.png,73,1,left,583,46,0,left,611,['VegFirst'],1
53,4,3,right,1221,3,v2.pngc1.png,70,0,left,664,47,1,right,335,['WearFirst'],1
54,3,2,right,1470,2,v2.pngc2.png,56,1,left,423,45,1,left,560,['WearFirst'],1
55,2,3,left,1261,2,v2.pngc2.png,56,1,right,694,48,0,right,924,['WearFirst'],1
56,3,2,right,1122,2,v2.pngc2.png,58,1,right,409,53,0,right,371,['WearFirst'],1
57,1,4,left,1103,1,v1.pngc1.png,67,1,right,534,41,1,left,627,['WearFirst'],1
58,4,2,right,877,2,v2.pngc2.png,57,1,left,461,53,1,right,357,['VegFirst'],1
59,2,3,left,984,2,v2.pngc2.png,54,0,right,587,57,0,left,1878,['WearFirst'],1
60,2,4,right,2262,4,v1.pngc2.png,54,0,right,544,59,1,right,348,['VegFirst'],1
61,4,1,left,2153,4,v1.pngc2.png,56,1,right,374,60,0,left,793,['VegFirst'],1
62,4,1,right,2100,1,v1.pngc1.png,63,1,left,660,31,1,left,444,['WearFirst'],1
63,3,4,right,2029,4,v1.pngc2.png,64,1,left,472,52,0,right,335,['WearFirst'],1
64,1,3,left,2477,1,v1.pngc1.png,62,0,right,358,27,1,left,466,['WearFirst'],1
66,1,4,left,708,1,v1.pngc1.png,62,1,left,562,28,0,left,350,['WearFirst'],1
67,2,3,left,1988,2,v2.pngc2.png,68,1,left,464,53,0,left,608,['VegFirst'],1
68,2,3,right,2811,3,v2.pngc1.png,63,1,left,814,28,0,right,544,['VegFirst'],1
69,4,3,right,1638,3,v2.pngc1.png,64,1,left,528,30,0,right,333,['WearFirst'],1
70,1,4,right,1059,4,v1.pngc2.png,66,1,right,556,52,0,right,440,['WearFirst'],1
71,4,2,right,1321,2,v2.pngc2.png,64,1,left,663,49,1,left,695,['VegFirst'],1
72,3,1,right,2911,1,v1.pngc1.png,61,1,left,406,34,0,left,440,['WearFirst'],1
73,1,3,right,1746,3,v2.pngc1.png,63,1,right,600,30,0,left,698,['WearFirst'],1
74,1,4,left,3018,1,v1.pngc1.png,65,1,right,820,30,1,left,670,['WearFirst'],1
75,2,3,left,1326,2,v2.pngc2.png,73,1,left,804,48,0,left,710,['VegFirst'],1
76,4,3,left,1725,4,v1.pngc2.png,78,0,left,1268,49,0,left,636,['WearFirst'],1
77,2,1,right,1005,1,v1.pngc1.png,68,1,right,1552,30,1,right,1028,['VegFirst'],1
78,3,1,left,4671,3,v2.pngc1.png,67,1,right,920,24,0,left,438,['VegFirst'],1
79,1,2,right,1391,2,v2.pngc2.png,80,1,left,595,53,1,left,949,['VegFirst'],1
80,3,2,left,923,3,v2.pngc1.png,67,1,left,473,28,1,right,456,['VegFirst'],1
81,3,2,right,1105,2,v2.pngc2.png,76,1,left,880,53,1,left,607,['WearFirst'],1
82,3,1,right,1026,1,v1.pngc1.png,65,1,left,644,29,1,right,557,['VegFirst'],1
83,1,2,right,1026,2,v2.pngc2.png,73,1,right,1092,53,1,right,443,['WearFirst'],1
84,2,1,left,1300,2,v2.pngc2.png,71,0,left,427,46,1,left,492,['WearFirst'],1
85,4,2,right,1676,2,v2.pngc2.png,69,1,left,684,45,1,left,700,['VegFirst'],1
86,1,3,left,1467,1,v1.pngc1.png,55,1,left,603,33,0,right,294,['WearFirst'],1
87,1,2,right,4077,2,v2.pngc2.png,75,1,left,678,49,1,right,357,['WearFirst'],1
88,1,4,right,1170,4,v1.pngc2.png,79,0,right,742,44,0,right,379,['WearFirst'],1
89,1,4,left,839,1,v1.pngc1.png,55,0,left,737,33,0,left,341,['VegFirst'],1
90,1,4,right,931,4,v1.pngc2.png,79,1,right,553,48,1,left,869,['WearFirst'],1
91,1,4,left,1590,1,v1.pngc1.png,66,1,right,433,30,1,right,443,['VegFirst'],1
92,4,2,right,1324,2,v2.pngc2.png,78,1,left,618,48,0,left,364,['WearFirst'],1
93,4,2,right,685,2,v2.pngc2.png,78,1,left,660,53,1,right,364,['VegFirst'],1
94,4,2,right,1449,2,v2.pngc2.png,80,0,left,362,50,1,right,310,['WearFirst'],1
95,2,4,right,1097,4,v1.pngc2.png,80,1,right,370,51,1,left,429,['WearFirst'],1
96,4,2,right,912,2,v2.pngc2.png,80,1,left,599,55,0,right,289,['WearFirst'],1
97,1,3,right,1880,3,v2.pngc1.png,71,1,right,537,46,1,left,374,['WearFirst'],1
98,3,4,left,1858,3,v2.pngc1.png,72,1,right,451,46,1,right,331,['WearFirst'],1
99,4,1,left,5113,4,v1.pngc2.png,76,1,right,457,47,1,left,505,['VegFirst'],1
100,1,2,right,1552,2,v2.pngc2.png,80,1,right,357,48,0,right,281,['WearFirst'],1
101,2,1,left,3465,2,v2.pngc2.png,78,1,right,226,44,0,left,332,['WearFirst'],1
102,4,2,left,2017,4,v1.pngc2.png,74,0,right,268,41,0,left,308,['WearFirst'],1
103,2,1,right,1099,1,v1.pngc1.png,62,0,left,642,43,0,left,386,['WearFirst'],1
104,2,1,left,2822,2,v2.pngc2.png,76,0,right,585,37,1,right,372,['VegFirst'],1
105,2,4,left,3432,2,v2.pngc2.png,79,1,right,266,39,1,left,826,['WearFirst'],1
106,2,4,left,1428,2,v2.pngc2.png,78,0,right,302,39,1,left,389,['WearFirst'],1
107,2,4,left,2576,2,v2.pngc2.png,75,1,right,285,38,0,right,324,['WearFirst'],1
108,4,3,right,1594,3,v2.pngc1.png,59,1,left,590,44,0,right,433,['VegFirst'],1
109,2,1,right,3107,1,v1.pngc1.png,57,0,right,339,43,0,right,271,['WearFirst'],1
110,2,4,right,1455,4,v1.pngc2.png,77,1,left,472,40,1,left,943,['VegFirst'],1
111,1,4,right,933,4,v1.pngc2.png,77,1,right,354,42,0,right,294,['WearFirst'],1
112,1,4,left,1422,1,v1.pngc1.png,59,0,left,536,40,1,right,341,['VegFirst'],1
113,1,2,right,1562,2,v2.pngc2.png,77,1,left,359,47,1,right,379,['WearFirst'],1
114,4,2,right,1543,2,v2.pngc2.png,80,1,left,693,48,1,right,355,['WearFirst'],1
115,3,2,right,896,2,v2.pngc2.png,80,0,left,312,48,0,right,309,['WearFirst'],1
116,4,1,left,1044,4,v1.pngc2.png,80,1,left,446,42,1,right,502,['WearFirst'],1
117,3,1,right,1014,1,v1.pngc1.png,56,1,right,337,45,0,left,277,['WearFirst'],1
118,3,1,left,845,3,v2.pngc1.png,57,1,right,503,45,0,right,405,['VegFirst'],1
119,4,2,left,991,4,v1.pngc2.png,80,0,right,419,47,0,right,284,['VegFirst'],1
120,1,4,left,940,1,v1.pngc1.png,55,1,left,570,40,0,right,629,['VegFirst'],1
121,1,4,right,2456,4,v1.pngc2.png,80,1,left,617,46,0,right,483,['VegFirst'],1
122,4,3,right,843,3,v2.pngc1.png,56,1,right,437,36,0,left,709,['VegFirst'],1
123,2,1,right,1324,1,v1.pngc1.png,57,0,left,442,38,0,left,339,['WearFirst'],1
124,3,2,left,1952,3,v2.pngc1.png,57,0,left,397,39,0,left,336,['VegFirst'],1
125,2,1,right,1077,1,v1.pngc1.png,57,0,right,414,37,0,left,376,['VegFirst'],1
126,2,3,right,892,3,v2.pngc1.png,58,1,left,627,39,1,right,628,['WearFirst'],1
127,3,2,left,1327,3,v2.pngc1.png,57,1,left,413,35,0,left,695,['VegFirst'],1
128,1,3,left,2542,1,v1.pngc1.png,62,0,left,484,35,1,right,692,['WearFirst'],1
129,1,3,right,849,3,v2.pngc1.png,63,1,right,426,34,0,right,307,['WearFirst'],1
130,4,3,right,954,3,v2.pngc1.png,64,1,right,327,35,0,left,372,['WearFirst'],1
131,1,3,right,1624,3,v2.pngc1.png,61,0,left,939,37,0,right,709,['WearFirst'],1
132,2,4,left,1596,2,v2.pngc2.png,70,1,right,680,60,1,left,359,['VegFirst'],1
133,1,2,right,996,2,v2.pngc2.png,72,0,left,663,60,1,right,311,['VegFirst'],1
134,4,2,right,2679,2,v2.pngc2.png,74,0,left,472,67,1,left,639,['WearFirst'],1
135,2,3,right,1328,3,v2.pngc1.png,60,1,right,487,41,0,right,445,['WearFirst'],1
136,2,4,left,1127,2,v2.pngc2.png,75,1,left,413,64,1,left,639,['WearFirst'],1
137,2,1,right,736,1,v1.pngc1.png,53,1,right,854,39,1,left,382,['VegFirst'],1
138,2,1,right,778,1,v1.pngc1.png,55,1,left,574,40,0,right,441,['VegFirst'],1
139,3,1,right,939,1,v1.pngc1.png,56,0,left,1328,36,0,right,350,['VegFirst'],1
140,1,3,left,1275,1,v1.pngc1.png,54,0,left,395,39,1,right,278,['VegFirst'],1
141,4,3,right,742,3,v2.pngc1.png,50,0,left,347,40,0,right,280,['WearFirst'],1
142,4,2,right,1312,2,v2.pngc2.png,80,1,right,343,60,1,right,308,['WearFirst'],1
143,4,3,right,986,3,v2.pngc1.png,53,0,right,318,38,0,right,276,['WearFirst'],1
144,1,3,right,1292,3,v2.pngc1.png,58,1,right,579,41,1,left,599,['VegFirst'],1
145,2,1,right,802,1,v1.pngc1.png,60,1,right,557,41,0,left,745,['VegFirst'],1
146,4,2,right,1478,2,v2.pngc2.png,80,1,right,383,66,1,left,330,['WearFirst'],1
147,3,2,left,2096,3,v2.pngc1.png,56,0,right,336,36,1,right,308,['WearFirst'],1
148,4,3,right,1523,3,v2.pngc1.png,50,1,left,482,39,0,left,489,['VegFirst'],1
