trial, Lperson, Rperson, Key1, RT1, ChosenP,Items for sale in trial, Probs-Ch2, Ch2-Fdbck, Ch2-Key, Ch2-RT, Probs-Ch3, Ch3-Fdbck, Ch3-Key, Ch3-RT, Veg/Clothing 1st,iti
1,1,3,left,1244,1,v1.pngc1.png,75,1,left,1174,38,0,right,850,['WearFirst'],1
2,2,3,right,1059,3,v2.pngc1.png,75,1,left,716,41,0,right,602,['VegFirst'],1
3,2,4,left,1236,2,v2.pngc2.png,50,0,left,2102,29,0,left,621,['VegFirst'],1
4,1,2,left,2358,1,v1.pngc1.png,73,1,left,1739,39,0,left,2032,['WearFirst'],1
1,2,1,right,1121,1,v1.pngc1.png,75,0,right,1111,38,0,right,861,['WearFirst'],1
3,4,2,right,1278,2,v2.pngc2.png,50,0,right,910,29,0,right,469,['WearFirst'],1
4,3,4,left,1436,3,v2.pngc1.png,73,1,right,998,39,0,right,457,['WearFirst'],1
5,4,3,left,2753,4,v1.pngc2.png,50,1,right,974,28,1,right,874,['WearFirst'],1
6,3,4,right,769,4,v1.pngc2.png,50,1,left,606,33,0,left,440,['WearFirst'],1
7,4,3,left,792,4,v1.pngc2.png,55,1,right,740,29,0,left,496,['WearFirst'],1
8,3,2,left,928,3,v2.pngc1.png,67,1,right,822,42,1,left,376,['VegFirst'],1
9,4,2,right,1195,2,v2.pngc2.png,56,0,left,310,27,1,right,268,['VegFirst'],1
10,1,4,left,884,1,v1.pngc1.png,67,1,right,348,41,0,right,360,['WearFirst'],1
11,2,4,right,932,4,v1.pngc2.png,64,0,right,642,25,0,right,291,['WearFirst'],1
12,3,2,left,1001,3,v2.pngc1.png,71,0,right,324,38,0,left,289,['VegFirst'],1
13,4,2,right,1896,2,v2.pngc2.png,69,1,left,272,22,1,right,319,['VegFirst'],1
14,1,3,left,1804,1,v1.pngc1.png,68,0,left,344,41,0,right,276,['VegFirst'],1
15,1,2,right,955,2,v2.pngc2.png,67,0,left,1049,26,0,right,289,['WearFirst'],1
16,3,4,right,1208,4,v1.pngc2.png,68,0,left,283,27,0,right,266,['VegFirst'],1
17,1,3,right,810,3,v2.pngc1.png,64,0,left,269,39,0,right,245,['VegFirst'],1
18,1,3,right,741,3,v2.pngc1.png,63,1,left,339,38,1,left,303,['WearFirst'],1
19,1,4,right,1509,4,v1.pngc2.png,67,1,right,236,28,0,right,253,['VegFirst'],1
20,2,1,left,2029,2,v2.pngc2.png,63,1,left,272,30,0,right,239,['VegFirst'],1
21,1,3,right,582,3,v2.pngc1.png,65,0,left,289,42,1,left,264,['WearFirst'],1
22,4,1,left,1256,4,v1.pngc2.png,64,1,left,329,25,1,left,1678,['WearFirst'],1
24,3,2,left,1095,3,v2.pngc1.png,65,0,left,390,48,1,right,313,['VegFirst'],1
25,4,3,right,871,3,v2.pngc1.png,67,0,right,319,46,0,left,260,['VegFirst'],1
26,4,1,right,1260,1,v1.pngc1.png,67,1,left,253,45,0,left,597,['VegFirst'],1
27,1,3,left,880,1,v1.pngc1.png,70,1,right,376,49,0,right,451,['VegFirst'],1
28,1,3,right,1140,3,v2.pngc1.png,74,0,left,426,48,0,left,307,['WearFirst'],1
29,1,3,left,1105,1,v1.pngc1.png,76,0,right,272,49,1,right,255,['WearFirst'],1
31,3,4,right,1137,4,v1.pngc2.png,56,0,right,446,25,0,right,247,['WearFirst'],1
32,1,4,left,623,1,v1.pngc1.png,77,0,right,482,44,1,right,345,['WearFirst'],1
33,2,3,left,1725,2,v2.pngc2.png,59,0,right,588,24,0,left,375,['WearFirst'],1
34,1,3,left,2874,1,v1.pngc1.png,73,0,left,331,44,1,right,320,['VegFirst'],1
35,3,2,right,2621,2,v2.pngc2.png,59,1,left,416,27,0,left,394,['WearFirst'],1
36,3,2,right,805,2,v2.pngc2.png,57,1,right,607,27,0,left,298,['VegFirst'],1
37,2,3,right,5065,3,v2.pngc1.png,73,1,right,626,44,0,left,324,['WearFirst'],1
38,1,2,right,833,2,v2.pngc2.png,54,1,left,466,30,0,right,290,['WearFirst'],1
40,4,3,left,1144,4,v1.pngc2.png,55,1,left,566,31,1,left,306,['VegFirst'],1
41,2,3,left,2936,2,v2.pngc2.png,55,1,right,622,36,1,left,271,['WearFirst'],1
42,4,3,left,1879,4,v1.pngc2.png,53,1,left,391,39,0,right,650,['VegFirst'],1
43,2,3,left,1347,2,v2.pngc2.png,55,1,right,448,42,0,left,665,['VegFirst'],1
44,4,1,right,2010,1,v1.pngc1.png,75,1,right,1629,47,1,right,228,['VegFirst'],1
45,3,1,right,1525,1,v1.pngc1.png,76,0,left,316,48,0,right,313,['VegFirst'],1
46,3,1,left,1007,3,v2.pngc1.png,73,1,left,594,48,1,left,381,['WearFirst'],1
47,1,4,right,1912,4,v1.pngc2.png,53,0,left,1688,44,0,left,1263,['VegFirst'],1
48,3,2,right,2791,2,v2.pngc2.png,52,1,right,499,41,0,right,274,['WearFirst'],1
49,4,3,right,1073,3,v2.pngc1.png,69,1,right,497,46,0,right,280,['WearFirst'],1
50,2,1,right,2759,1,v1.pngc1.png,67,0,left,1061,45,0,right,277,['WearFirst'],1
51,1,3,right,1492,3,v2.pngc1.png,71,1,left,356,47,0,right,296,['VegFirst'],1
52,1,2,right,3030,2,v2.pngc2.png,55,1,right,425,45,0,right,299,['VegFirst'],1
53,3,1,left,1361,3,v2.pngc1.png,70,1,left,278,47,1,right,309,['VegFirst'],1
54,4,1,left,5523,4,v1.pngc2.png,56,0,right,307,45,1,left,257,['VegFirst'],1
56,3,1,left,1414,3,v2.pngc1.png,66,1,left,401,42,1,left,268,['WearFirst'],1
57,3,1,left,1596,3,v2.pngc1.png,67,1,left,400,41,1,right,234,['VegFirst'],1
58,4,1,right,2794,1,v1.pngc1.png,65,1,left,414,45,0,right,280,['VegFirst'],1
59,3,2,left,1751,3,v2.pngc1.png,65,1,right,388,40,0,right,695,['VegFirst'],1
60,4,1,left,2611,4,v1.pngc2.png,54,1,right,567,59,1,right,283,['WearFirst'],1
61,1,2,right,3739,2,v2.pngc2.png,56,1,left,289,60,0,right,288,['VegFirst'],1
62,1,3,left,2248,1,v1.pngc1.png,63,1,right,626,31,0,left,315,['WearFirst'],1
63,2,4,left,1426,2,v2.pngc2.png,64,1,right,404,52,1,right,302,['VegFirst'],1
64,4,2,right,925,2,v2.pngc2.png,65,1,left,284,51,1,left,283,['WearFirst'],1
65,4,1,left,2939,4,v1.pngc2.png,68,0,right,369,55,1,left,292,['WearFirst'],1
66,3,1,left,1324,3,v2.pngc1.png,62,1,right,442,28,0,left,283,['WearFirst'],1
67,4,1,left,3323,4,v1.pngc2.png,68,1,right,466,53,1,left,313,['VegFirst'],1
68,2,3,left,2808,2,v2.pngc2.png,65,1,right,444,54,1,right,292,['WearFirst'],1
69,1,2,right,1284,2,v2.pngc2.png,67,0,right,491,57,0,left,314,['WearFirst'],1
70,1,3,left,601,1,v1.pngc1.png,64,1,right,475,33,1,right,403,['WearFirst'],1
71,2,3,right,2565,3,v2.pngc1.png,62,0,right,434,35,0,left,267,['VegFirst'],1
72,2,3,left,820,2,v2.pngc2.png,65,0,left,390,50,1,left,281,['WearFirst'],1
73,3,2,right,2225,2,v2.pngc2.png,71,1,left,411,49,1,right,285,['WearFirst'],1
74,4,3,right,941,3,v2.pngc1.png,65,1,right,395,30,0,right,293,['WearFirst'],1
75,4,3,left,1253,4,v1.pngc2.png,73,1,left,318,48,1,left,492,['VegFirst'],1
76,3,1,right,1371,1,v1.pngc1.png,64,0,right,399,30,1,right,282,['WearFirst'],1
77,3,2,right,866,2,v2.pngc2.png,78,1,right,314,51,0,left,280,['VegFirst'],1
78,2,4,left,3336,2,v2.pngc2.png,77,1,left,454,50,1,right,318,['WearFirst'],1
79,3,4,right,1237,4,v1.pngc2.png,80,1,left,343,53,1,left,699,['VegFirst'],1
80,2,1,left,1155,2,v2.pngc2.png,80,1,right,512,52,0,left,301,['WearFirst'],1
81,2,3,right,1261,3,v2.pngc1.png,67,1,right,374,26,0,right,258,['VegFirst'],1
82,1,4,right,2186,4,v1.pngc2.png,75,1,right,854,51,1,left,262,['VegFirst'],1
83,2,1,left,1463,2,v2.pngc2.png,73,1,left,472,53,0,left,295,['WearFirst'],1
84,4,1,right,815,1,v1.pngc1.png,61,1,right,330,29,0,right,159,['WearFirst'],1
85,4,2,left,1796,4,v1.pngc2.png,69,0,left,648,45,0,right,281,['WearFirst'],1
86,3,2,left,3144,3,v2.pngc1.png,55,1,left,351,33,0,left,219,['WearFirst'],1
87,3,1,right,2038,1,v1.pngc1.png,52,0,right,320,33,0,right,253,['WearFirst'],1
88,3,1,left,1966,3,v2.pngc1.png,58,1,right,314,33,0,right,248,['VegFirst'],1
89,3,1,left,1097,3,v2.pngc1.png,55,1,right,489,33,0,left,280,['WearFirst'],1
90,4,3,left,1488,4,v1.pngc2.png,79,0,left,287,48,0,left,190,['WearFirst'],1
91,4,2,right,1194,2,v2.pngc2.png,80,1,right,486,45,1,right,420,['WearFirst'],1
92,1,2,right,1014,2,v2.pngc2.png,78,1,left,417,48,1,right,379,['WearFirst'],1
93,3,4,left,1140,3,v2.pngc1.png,71,1,right,570,37,0,left,261,['VegFirst'],1
94,3,4,right,1758,4,v1.pngc2.png,80,1,left,355,50,1,left,277,['WearFirst'],1
95,4,2,left,1206,4,v1.pngc2.png,80,1,left,401,51,1,left,283,['WearFirst'],1
96,1,4,right,1635,4,v1.pngc2.png,80,0,left,293,55,1,left,546,['VegFirst'],1
97,1,3,left,863,1,v1.pngc1.png,71,1,right,384,46,0,right,275,['VegFirst'],1
98,3,1,left,1723,3,v2.pngc1.png,72,1,right,481,46,1,left,353,['VegFirst'],1
99,4,3,right,750,3,v2.pngc1.png,75,1,left,499,46,0,right,338,['WearFirst'],1
100,4,3,left,1031,4,v1.pngc2.png,80,0,right,545,48,0,left,286,['WearFirst'],1
101,4,2,right,1013,2,v2.pngc2.png,78,1,right,376,44,0,left,283,['WearFirst'],1
102,4,2,right,1260,2,v2.pngc2.png,74,1,right,549,41,1,left,306,['VegFirst'],1
103,1,2,right,1112,2,v2.pngc2.png,77,1,left,319,39,0,left,300,['WearFirst'],1
104,3,4,left,1508,3,v2.pngc1.png,63,1,right,387,40,1,left,277,['VegFirst'],1
105,3,2,left,533,3,v2.pngc1.png,58,0,right,443,40,1,right,371,['WearFirst'],1
106,1,2,right,1656,2,v2.pngc2.png,78,1,right,561,39,1,left,613,['WearFirst'],1
107,3,1,left,1152,3,v2.pngc1.png,60,1,left,485,45,0,right,292,['WearFirst'],1
108,2,4,left,1355,2,v2.pngc2.png,74,1,right,256,43,1,right,248,['WearFirst'],1
109,4,3,right,3106,3,v2.pngc1.png,57,0,right,297,43,0,right,312,['VegFirst'],1
110,2,4,left,1014,2,v2.pngc2.png,77,0,left,633,40,1,right,387,['WearFirst'],1
111,4,3,right,910,3,v2.pngc1.png,59,1,left,317,40,1,left,275,['WearFirst'],1
112,3,1,left,1059,3,v2.pngc1.png,59,0,right,652,40,0,right,292,['WearFirst'],1
113,1,2,right,955,2,v2.pngc2.png,77,0,right,297,47,0,right,231,['WearFirst'],1
114,3,2,left,1209,3,v2.pngc1.png,59,1,right,516,42,0,left,250,['VegFirst'],1
115,4,3,left,1683,4,v1.pngc2.png,80,1,right,843,48,0,left,508,['VegFirst'],1
116,2,3,right,2090,3,v2.pngc1.png,57,1,right,346,44,1,left,231,['VegFirst'],1
117,3,1,left,665,3,v2.pngc1.png,56,0,right,538,45,0,left,302,['WearFirst'],1
118,4,1,right,1341,1,v1.pngc1.png,57,1,right,355,45,0,left,807,['VegFirst'],1
119,1,3,left,1066,1,v1.pngc1.png,57,1,left,522,44,1,right,279,['WearFirst'],1
120,1,4,left,927,1,v1.pngc1.png,55,1,left,413,40,0,left,303,['WearFirst'],1
121,2,3,right,982,3,v2.pngc1.png,58,1,left,418,37,0,right,268,['VegFirst'],1
122,1,2,right,797,2,v2.pngc2.png,74,1,right,256,51,0,left,616,['VegFirst'],1
123,1,4,left,811,1,v1.pngc1.png,57,1,right,262,38,0,right,557,['VegFirst'],1
124,4,3,left,1170,4,v1.pngc2.png,69,1,right,535,54,0,left,420,['WearFirst'],1
125,1,3,left,886,1,v1.pngc1.png,57,1,right,549,37,0,left,338,['WearFirst'],1
126,2,4,left,1271,2,v2.pngc2.png,76,1,right,416,54,1,right,306,['WearFirst'],1
127,1,4,right,2608,4,v1.pngc2.png,76,1,left,428,53,1,left,549,['WearFirst'],1
128,4,1,right,1226,1,v1.pngc1.png,62,1,left,444,35,0,right,245,['VegFirst'],1
129,4,3,left,838,4,v1.pngc2.png,75,0,right,567,55,0,left,283,['VegFirst'],1
130,1,4,left,1723,1,v1.pngc1.png,64,1,left,378,35,1,left,341,['WearFirst'],1
131,1,3,left,946,1,v1.pngc1.png,61,0,left,456,37,0,left,256,['WearFirst'],1
132,1,4,left,1833,1,v1.pngc1.png,59,1,left,474,35,0,right,330,['WearFirst'],1
133,4,3,right,1174,3,v2.pngc1.png,62,1,right,826,37,0,right,291,['WearFirst'],1
134,4,1,left,2163,4,v1.pngc2.png,74,1,left,360,67,0,left,268,['WearFirst'],1
135,1,4,right,1077,4,v1.pngc2.png,74,1,right,317,64,0,left,483,['VegFirst'],1
136,4,2,left,1625,4,v1.pngc2.png,75,1,right,651,64,1,left,212,['WearFirst'],1
137,4,2,left,959,4,v1.pngc2.png,74,1,left,476,58,1,right,291,['WearFirst'],1
138,2,3,right,2234,3,v2.pngc1.png,55,0,left,604,40,1,right,302,['WearFirst'],1
139,3,4,left,1013,3,v2.pngc1.png,56,1,left,448,36,0,right,249,['VegFirst'],1
140,4,3,left,1018,4,v1.pngc2.png,77,1,left,396,58,1,left,327,['VegFirst'],1
141,4,1,left,837,4,v1.pngc2.png,76,0,left,470,59,0,left,326,['VegFirst'],1
142,1,2,left,908,1,v1.pngc1.png,48,1,left,475,39,1,right,394,['WearFirst'],1
144,4,3,left,917,4,v1.pngc2.png,77,1,right,539,67,0,left,304,['WearFirst'],1
145,4,1,right,1702,1,v1.pngc1.png,60,1,right,437,41,0,left,350,['VegFirst'],1
146,4,1,left,819,4,v1.pngc2.png,80,1,left,533,66,0,right,307,['WearFirst'],1
147,4,3,left,793,4,v1.pngc2.png,75,1,left,477,66,0,right,388,['VegFirst'],1
148,1,3,left,536,1,v1.pngc1.png,50,1,right,469,39,1,left,701,['WearFirst'],1
149,3,4,right,1420,4,v1.pngc2.png,78,1,left,455,67,1,left,2863,['VegFirst'],1
