trial, Lperson, Rperson, Key1, RT1, ChosenP,Items for sale in trial, Probs-Ch2, Ch2-Fdbck, Ch2-Key, Ch2-RT, Probs-Ch3, Ch3-Fdbck, Ch3-Key, Ch3-RT, Veg/Clothing 1st,iti
1,2,4,left,2055,2,v2.pngc2.png,48,0,left,2984,33,0,left,1172,['VegFirst'],1
2,2,3,right,824,3,v2.pngc1.png,75,0,right,1114,41,1,right,392,['WearFirst'],1
4,4,1,left,802,4,v1.pngc2.png,47,1,left,757,26,0,left,9,['WearFirst'],1
1,4,2,left,1402,4,v1.pngc2.png,48,1,right,789,33,0,right,1399,['WearFirst'],1
2,3,2,left,3410,3,v2.pngc1.png,75,1,left,542,41,1,left,675,['VegFirst'],1
3,4,2,right,1602,2,v2.pngc2.png,50,0,right,2181,29,0,right,385,['WearFirst'],1
4,4,1,left,1260,4,v1.pngc2.png,47,0,right,654,26,0,left,429,['WearFirst'],1
5,3,1,right,1847,1,v1.pngc1.png,69,1,right,857,42,0,right,473,['VegFirst'],1
6,3,4,left,1440,3,v2.pngc1.png,70,1,right,1586,45,1,right,413,['VegFirst'],1
7,2,3,left,1895,2,v2.pngc2.png,55,1,left,631,29,0,left,472,['VegFirst'],1
8,1,2,left,2303,1,v1.pngc1.png,67,0,right,735,42,0,right,260,['VegFirst'],1
9,1,2,right,1780,2,v2.pngc2.png,56,0,left,569,27,1,right,829,['WearFirst'],1
11,2,1,left,1713,2,v2.pngc2.png,64,1,left,744,25,0,right,357,['VegFirst'],1
12,1,3,right,1233,3,v2.pngc1.png,71,1,right,810,38,1,right,708,['WearFirst'],1
13,2,1,right,1699,1,v1.pngc1.png,67,0,left,466,39,1,left,226,['VegFirst'],1
14,4,1,left,1379,4,v1.pngc2.png,67,0,right,1455,25,1,left,272,['VegFirst'],1
16,3,4,left,922,3,v2.pngc1.png,63,0,left,736,38,0,left,325,['WearFirst'],1
17,4,3,left,1082,4,v1.pngc2.png,68,1,left,682,26,0,right,545,['WearFirst'],1
18,2,4,left,1414,2,v2.pngc2.png,69,1,right,497,22,0,right,336,['VegFirst'],1
19,4,2,left,1021,4,v1.pngc2.png,67,0,right,815,28,1,right,377,['WearFirst'],1
20,4,3,left,2813,4,v1.pngc2.png,63,1,left,656,30,0,right,344,['WearFirst'],1
21,1,4,left,845,1,v1.pngc1.png,65,1,left,590,42,1,right,313,['VegFirst'],1
22,2,3,right,1686,3,v2.pngc1.png,64,1,left,774,45,1,left,569,['WearFirst'],1
23,1,4,right,2285,4,v1.pngc2.png,62,1,left,597,23,0,left,398,['VegFirst'],1
24,2,1,right,616,1,v1.pngc1.png,65,1,left,674,48,0,right,330,['WearFirst'],1
25,3,2,right,1439,2,v2.pngc2.png,58,1,right,577,20,0,right,300,['WearFirst'],1
26,3,4,left,2059,3,v2.pngc1.png,67,0,left,572,45,0,left,303,['VegFirst'],1
27,3,1,right,724,1,v1.pngc1.png,70,1,right,484,49,0,right,347,['WearFirst'],1
28,1,3,left,1063,1,v1.pngc1.png,74,1,right,328,48,1,right,470,['VegFirst'],1
29,1,4,right,2693,4,v1.pngc2.png,57,1,left,581,27,0,right,656,['WearFirst'],1
30,3,2,right,2121,2,v2.pngc2.png,55,0,left,367,28,0,right,283,['VegFirst'],1
31,4,2,left,570,4,v1.pngc2.png,56,1,left,598,25,1,right,305,['WearFirst'],1
32,4,3,left,1263,4,v1.pngc2.png,57,1,left,480,23,0,right,1031,['WearFirst'],1
33,3,2,left,4257,3,v2.pngc1.png,72,0,right,587,45,0,right,238,['VegFirst'],1
34,1,4,left,4678,1,v1.pngc1.png,73,1,right,680,44,1,left,445,['WearFirst'],1
35,1,3,right,926,3,v2.pngc1.png,76,1,right,1100,44,1,left,563,['VegFirst'],1
36,1,3,left,2880,1,v1.pngc1.png,75,0,right,584,46,0,left,252,['WearFirst'],1
37,2,3,right,2709,3,v2.pngc1.png,73,1,left,421,44,0,left,302,['WearFirst'],1
38,1,3,left,1036,1,v1.pngc1.png,74,1,right,382,44,0,left,305,['VegFirst'],1
39,3,1,left,1207,3,v2.pngc1.png,78,1,right,442,43,1,right,347,['WearFirst'],1
40,4,3,left,1799,4,v1.pngc2.png,55,1,right,579,31,0,left,286,['WearFirst'],1
41,4,2,right,2813,2,v2.pngc2.png,55,0,left,385,36,0,right,148,['VegFirst'],1
42,4,3,left,1329,4,v1.pngc2.png,53,1,left,359,39,0,right,283,['VegFirst'],1
43,1,2,left,594,1,v1.pngc1.png,73,1,left,534,49,0,left,555,['VegFirst'],1
44,2,3,right,1727,3,v2.pngc1.png,75,1,right,413,47,1,right,279,['VegFirst'],1
45,1,4,left,2255,1,v1.pngc1.png,76,0,left,576,48,1,right,259,['WearFirst'],1
46,4,1,left,739,4,v1.pngc2.png,52,0,left,449,46,1,left,354,['VegFirst'],1
47,4,1,left,1317,4,v1.pngc2.png,53,0,left,332,44,0,left,273,['VegFirst'],1
48,2,4,left,2648,2,v2.pngc2.png,52,0,right,786,41,0,right,260,['WearFirst'],1
49,4,3,left,708,4,v1.pngc2.png,51,1,left,603,44,0,right,277,['WearFirst'],1
50,2,1,right,781,1,v1.pngc1.png,67,1,right,209,45,0,left,211,['VegFirst'],1
51,1,2,left,2797,1,v1.pngc1.png,71,1,right,305,47,1,left,287,['VegFirst'],1
52,3,2,left,1565,3,v2.pngc1.png,73,1,right,410,46,0,right,236,['VegFirst'],1
53,4,3,left,773,4,v1.pngc2.png,58,0,right,321,47,1,left,302,['VegFirst'],1
54,4,2,left,965,4,v1.pngc2.png,56,1,left,577,45,0,left,277,['WearFirst'],1
55,1,4,left,764,1,v1.pngc1.png,67,1,left,433,45,0,left,258,['WearFirst'],1
56,3,2,left,1235,3,v2.pngc1.png,66,0,right,524,42,0,right,218,['WearFirst'],1
58,1,4,left,996,1,v1.pngc1.png,65,0,left,551,45,1,left,292,['WearFirst'],1
59,4,2,left,1755,4,v1.pngc2.png,54,0,left,432,57,0,left,537,['VegFirst'],1
60,1,3,right,2238,3,v2.pngc1.png,65,1,left,400,38,1,left,321,['WearFirst'],1
61,2,3,left,487,2,v2.pngc2.png,56,0,right,350,60,1,right,219,['VegFirst'],1
62,3,2,left,3230,3,v2.pngc1.png,63,0,right,457,31,1,right,265,['WearFirst'],1
63,4,3,left,1385,4,v1.pngc2.png,64,1,right,525,52,0,right,330,['WearFirst'],1
64,1,2,left,1552,1,v1.pngc1.png,62,1,right,517,27,0,right,251,['WearFirst'],1
65,4,3,left,1052,4,v1.pngc2.png,68,1,left,317,55,1,right,187,['VegFirst'],1
66,1,3,left,1093,1,v1.pngc1.png,62,0,right,293,28,0,right,116,['VegFirst'],1
67,2,4,right,1122,4,v1.pngc2.png,68,1,right,704,53,1,right,278,['WearFirst'],1
68,4,2,right,2150,2,v2.pngc2.png,65,0,left,603,54,1,left,445,['WearFirst'],1
69,3,4,right,1750,4,v1.pngc2.png,67,1,right,291,57,0,right,329,['WearFirst'],1
70,4,1,right,895,1,v1.pngc1.png,64,0,left,310,33,1,left,332,['VegFirst'],1
71,2,4,left,1698,2,v2.pngc2.png,64,1,right,553,49,1,left,277,['WearFirst'],1
72,3,2,left,1509,3,v2.pngc1.png,61,1,right,300,34,1,right,322,['WearFirst'],1
73,1,4,left,2008,1,v1.pngc1.png,63,1,right,380,30,0,right,303,['WearFirst'],1
74,1,4,right,1197,4,v1.pngc2.png,71,1,right,392,47,0,right,259,['WearFirst'],1
75,3,4,left,1491,3,v2.pngc1.png,68,0,left,499,32,1,left,257,['VegFirst'],1
76,3,4,right,1074,4,v1.pngc2.png,78,1,right,810,49,0,right,596,['WearFirst'],1
77,4,3,left,1343,4,v1.pngc2.png,78,1,left,685,51,0,right,860,['WearFirst'],1
78,3,2,left,956,3,v2.pngc1.png,67,0,left,529,24,0,left,302,['WearFirst'],1
79,1,2,left,892,1,v1.pngc1.png,67,1,right,484,26,1,right,651,['WearFirst'],1
80,2,3,left,1972,2,v2.pngc2.png,80,1,right,369,52,1,right,268,['WearFirst'],1
82,3,2,right,2174,2,v2.pngc2.png,75,1,left,331,51,0,left,272,['VegFirst'],1
83,1,3,left,1016,1,v1.pngc1.png,65,1,right,394,31,0,left,237,['VegFirst'],1
84,2,1,right,2422,1,v1.pngc1.png,61,0,left,553,29,0,right,229,['VegFirst'],1
85,1,2,right,1375,2,v2.pngc2.png,69,0,right,531,45,1,left,273,['VegFirst'],1
86,3,2,left,2097,3,v2.pngc1.png,55,0,right,385,33,0,left,36,['VegFirst'],1
87,4,3,left,1077,4,v1.pngc2.png,75,1,right,317,49,0,right,291,['VegFirst'],1
88,4,3,left,1155,4,v1.pngc2.png,79,0,left,536,44,1,right,77,['VegFirst'],1
89,2,4,left,1517,2,v2.pngc2.png,77,1,left,411,48,0,right,277,['VegFirst'],1
90,3,1,right,1021,1,v1.pngc1.png,61,0,left,343,30,0,right,36,['VegFirst'],1
91,2,4,right,1661,4,v1.pngc2.png,80,1,left,750,45,0,right,75,['WearFirst'],1
92,3,2,right,979,2,v2.pngc2.png,78,0,left,679,48,0,left,574,['WearFirst'],1
93,4,1,right,1408,1,v1.pngc1.png,71,0,right,587,37,0,right,102,['WearFirst'],1
94,2,4,left,877,2,v2.pngc2.png,80,0,left,893,50,0,right,412,['VegFirst'],1
95,2,4,right,790,4,v1.pngc2.png,80,0,right,338,51,1,right,727,['VegFirst'],1
96,1,3,right,2757,3,v2.pngc1.png,70,0,right,984,43,0,right,252,['VegFirst'],1
97,1,2,right,637,2,v2.pngc2.png,78,0,left,646,52,1,right,303,['WearFirst'],1
98,3,1,left,574,3,v2.pngc1.png,72,1,right,378,46,1,left,269,['VegFirst'],1
99,1,4,right,742,4,v1.pngc2.png,76,1,left,464,47,1,right,241,['WearFirst'],1
100,2,1,left,1243,2,v2.pngc2.png,80,1,left,364,48,1,right,296,['VegFirst'],1
101,2,4,left,967,2,v2.pngc2.png,78,1,right,484,44,0,right,315,['WearFirst'],1
102,1,4,right,2681,4,v1.pngc2.png,74,1,left,457,41,0,right,265,['WearFirst'],1
103,1,3,right,434,3,v2.pngc1.png,62,0,left,347,43,1,left,448,['VegFirst'],1
104,2,3,left,1025,2,v2.pngc2.png,76,1,right,307,37,1,right,305,['WearFirst'],1
105,4,2,left,1528,4,v1.pngc2.png,79,1,left,470,39,0,left,205,['WearFirst'],1
106,3,1,right,1240,1,v1.pngc1.png,56,1,right,481,41,0,right,113,['VegFirst'],1
107,4,2,right,1095,2,v2.pngc2.png,75,1,right,991,38,1,right,266,['VegFirst'],1
108,1,3,right,1107,3,v2.pngc1.png,59,1,right,313,44,0,left,199,['VegFirst'],1
109,2,1,left,483,2,v2.pngc2.png,77,1,right,410,42,0,right,252,['VegFirst'],1
110,3,4,left,901,3,v2.pngc1.png,58,1,right,268,40,1,right,300,['VegFirst'],1
111,4,2,right,739,2,v2.pngc2.png,77,1,right,345,42,1,left,398,['VegFirst'],1
113,2,1,left,801,2,v2.pngc2.png,77,0,right,580,47,1,right,488,['WearFirst'],1
114,1,3,right,1208,3,v2.pngc1.png,59,1,left,387,42,1,right,237,['VegFirst'],1
115,1,2,right,638,2,v2.pngc2.png,80,0,left,528,48,0,left,229,['WearFirst'],1
116,2,4,right,2103,4,v1.pngc2.png,80,1,right,295,42,0,left,253,['VegFirst'],1
117,3,4,left,798,3,v2.pngc1.png,56,1,left,393,45,0,left,564,['VegFirst'],1
118,4,1,right,2112,1,v1.pngc1.png,57,1,right,328,45,1,right,789,['VegFirst'],1
119,3,4,left,1889,3,v2.pngc1.png,57,1,left,472,44,0,left,168,['WearFirst'],1
120,2,3,left,1756,2,v2.pngc2.png,79,1,right,321,45,1,left,103,['VegFirst'],1
121,1,4,right,1630,4,v1.pngc2.png,80,1,right,400,46,1,right,235,['WearFirst'],1
122,4,1,left,1029,4,v1.pngc2.png,74,0,right,535,51,1,left,244,['WearFirst'],1
124,3,1,left,1582,3,v2.pngc1.png,57,0,right,330,39,0,right,247,['WearFirst'],1
125,1,3,right,1137,3,v2.pngc1.png,57,1,right,583,37,0,right,226,['WearFirst'],1
126,1,4,left,948,1,v1.pngc1.png,58,0,left,306,39,1,right,200,['VegFirst'],1
127,2,3,left,418,2,v2.pngc2.png,76,1,right,532,53,1,left,233,['WearFirst'],1
128,2,4,left,531,2,v2.pngc2.png,75,1,right,465,55,0,left,273,['WearFirst'],1
129,2,1,left,481,2,v2.pngc2.png,75,1,left,369,55,1,right,205,['VegFirst'],1
130,4,2,right,559,2,v2.pngc2.png,75,1,left,364,55,0,left,328,['VegFirst'],1
131,3,4,left,918,3,v2.pngc1.png,61,0,right,300,37,0,left,243,['VegFirst'],1
132,2,3,left,1988,2,v2.pngc2.png,70,1,right,576,60,1,right,228,['VegFirst'],1
133,4,2,right,1157,2,v2.pngc2.png,72,1,right,426,60,1,right,228,['WearFirst'],1
134,4,1,left,2102,4,v1.pngc2.png,74,1,right,285,67,0,right,284,['VegFirst'],1
135,1,4,left,780,1,v1.pngc1.png,60,1,left,528,41,1,right,1085,['WearFirst'],1
136,3,4,left,989,3,v2.pngc1.png,56,1,right,321,39,1,left,1198,['VegFirst'],1
137,2,3,left,658,2,v2.pngc2.png,74,1,left,323,58,1,right,408,['VegFirst'],1
138,2,3,left,732,2,v2.pngc2.png,69,1,right,282,58,0,left,409,['VegFirst'],1
139,1,2,left,644,1,v1.pngc1.png,56,1,right,253,36,0,left,325,['VegFirst'],1
140,4,2,right,1466,2,v2.pngc2.png,77,1,right,451,58,1,right,331,['WearFirst'],1
141,4,1,right,825,1,v1.pngc1.png,50,1,left,371,40,0,left,439,['VegFirst'],1
142,2,1,left,1064,2,v2.pngc2.png,80,1,right,393,60,0,right,324,['WearFirst'],1
143,1,2,right,985,2,v2.pngc2.png,80,1,right,365,62,0,right,409,['WearFirst'],1
144,4,2,left,1044,4,v1.pngc2.png,77,0,right,517,67,0,left,251,['WearFirst'],1
145,4,3,right,781,3,v2.pngc1.png,60,0,left,193,41,1,right,171,['VegFirst'],1
146,4,1,right,1311,1,v1.pngc1.png,58,0,left,270,41,0,left,270,['VegFirst'],1
147,1,3,right,701,3,v2.pngc1.png,56,1,left,444,36,0,right,261,['WearFirst'],1
148,2,1,left,685,2,v2.pngc2.png,79,1,right,508,67,0,left,114,['WearFirst'],1
149,4,2,right,1985,2,v2.pngc2.png,78,1,left,413,67,0,right,415,['WearFirst'],1
